"trial_type","trial_index","time_elapsed","internal_node_id","group","round_payoff_matrix","rt","stimulus","button_pressed","consent","responses","age","gender","gender_other","view_history","phase","round","isPractice","participant_move","bot_move","participant_payoff","bot_payoff","value","matrix_number"
"pavlovia","0","608","0.0-0.0","no_com_bot","
                  <table class=""payoff-matrix"">
                    <tr>
                      <th rowspan=""2"">Your Choice</th>
                      <th colspan=""2"">Partner's Choice</th>
                    </tr>
                    <tr>
                      <th>A</th>
                      <th>B</th>
                    </tr>
                    <tr>
                      <th>A</th>
                      <td>(4,4)</td>
                      <td>(0,5)</td>
                    </tr>
                    <tr>
                      <th>B</th>
                      <td>(5,0)</td>
                      <td>(1,1)</td>
                    </tr>
                  </table>
              ","","","","","","","","","","","","","","","","","",""
"html-button-response","1","8166","0.0-1.0","no_com_bot","
                  <table class=""payoff-matrix"">
                    <tr>
                      <th rowspan=""2"">Your Choice</th>
                      <th colspan=""2"">Partner's Choice</th>
                    </tr>
                    <tr>
                      <th>A</th>
                      <th>B</th>
                    </tr>
                    <tr>
                      <th>A</th>
                      <td>(4,4)</td>
                      <td>(0,5)</td>
                    </tr>
                    <tr>
                      <th>B</th>
                      <td>(5,0)</td>
                      <td>(1,1)</td>
                    </tr>
                  </table>
              ","7554","<!-- resources/consent_form.html -->

<h2>Consent Form</h2>
<p><strong>Department of Psychology, University of Warwick</strong></p>

<p><strong>Study title:</strong> Playing a Cooperation/Defection game with a Partner Online<br>
<strong>Name of Researcher:</strong> Luc Mekouar<br>
<strong>Name of Supervisor:</strong> Dr. Maria Robinson</p>

<p>Welcome and thank you for your interest in this research study! This research study is on understanding human cooperation in a digital setting. You will be asked to play the game of prisoner’s dilemma with a provided partner over multiple rounds. The rules will be clearly stated before the game begins, and you will have the opportunity to practice.</p>

<p><strong>You must be over the age of 18 to take part.</strong></p>

<p>You will also be asked to report demographic information (gender and age) to allow us to understand our sample better and determine the generalizability of the findings.</p>

<p>The experiment should take about 15 minutes to complete. You will be playing with a partner multiple rounds. Each round, you and your partner each will be able to either cooperate or defect, after which you and your partner will receive in-game reward (fictional), where the amount depends on both you and your partner’s decision in that round.</p>

<p>At the end of the survey, you will have the option to enter a prize draw to win an amazon voucher worth £20. Please note that to enter the draw you must provide your email address. However, please note that this information will not be connected to your study responses. The prize draw will take place on the 24th of February, after which your email will be deleted.</p>

<p>This study is being conducted as part of my 3rd year project at the University of Warwick and is not funded by an external body.</p>

<p>Your participation is completely voluntary. You can withdraw at any time, and for any reason, simply by closing your browser.</p>

<p>No identifiable data will be collected from you as part of this study. This means that once your responses have been submitted to the research team, it will not be possible to withdraw this data as your individual responses cannot be identified.</p>

<p>Data will be securely stored on University of Warwick secure storage and will be processed only for the purpose of scientific analysis. Access to the data will be restricted to the investigators listed above. Data will be reviewed on completion of the research, in line with the University of Warwick data retention policy.</p>

<p>Please refer to the University of Warwick Research Privacy Notice which is available here: <a href=""https://warwick.ac.uk/services/idc/dataprotection/privacynotices/researchprivacynotice"">Research Privacy Notice</a> or by contacting the Information and Data Compliance Team at <a href=""mailto:infocompliance@warwick.ac.uk"">infocompliance@warwick.ac.uk</a>.</p>

<p>This study has been reviewed and given a favourable opinion by the University of Warwick’s Department of Psychology Research Ethics Committee.</p>

<h3>Additional Support</h3>
<p>If you require further information, please contact Luc Mekouar at <a href=""mailto:luc.mekouar@warwick.ac.uk"">luc.mekouar@warwick.ac.uk</a> or their academic supervisor Dr. Maria Robinson at <a href=""mailto:maria.robinson@warwick.ac.uk"">maria.robinson@warwick.ac.uk</a>.</p>

<h3>Who should I contact if I wish to make a complaint?</h3>
<p>Any complaint should be addressed to the person below, who is the supervisor of this study:</p>
<p><strong>Supervisor’s name:</strong> Dr. Maria Robinson<br>
<strong>Address:</strong> Department of Psychology, University of Warwick, Coventry, CV4 7AL<br>
<strong>Email:</strong> <a href=""mailto:maria.robinson@warwick.ac.uk"">maria.robinson@warwick.ac.uk</a></p>

<p>If you wish to raise a complaint about how we have handled your personal data, you can contact our Data Protection Officer who will investigate the matter: <a href=""mailto:DPO@warwick.ac.uk"">DPO@warwick.ac.uk</a>.</p>

<p>If you are not satisfied with our response or believe we are processing your personal data in a way that is not lawful, you can complain to the Information Commissioner’s Office (ICO).</p>

<p>Thank you for taking the time to read this Participant Information Leaflet.</p>

<p>I have read the above and … </p>
","0","true","","","","","","","","","","","","","",""
"survey-html-form","2","17194","0.0-2.0","no_com_bot","
                  <table class=""payoff-matrix"">
                    <tr>
                      <th rowspan=""2"">Your Choice</th>
                      <th colspan=""2"">Partner's Choice</th>
                    </tr>
                    <tr>
                      <th>A</th>
                      <th>B</th>
                    </tr>
                    <tr>
                      <th>A</th>
                      <td>(4,4)</td>
                      <td>(0,5)</td>
                    </tr>
                    <tr>
                      <th>B</th>
                      <td>(5,0)</td>
                      <td>(1,1)</td>
                    </tr>
                  </table>
              ","9022","","","","{""age"":""21"",""gender"":""Female"",""gender_other"":""""}","21","Female","null","","","","","","","","","",""
"instructions","3","55647","0.0-3.0","no_com_bot","
                  <table class=""payoff-matrix"">
                    <tr>
                      <th rowspan=""2"">Your Choice</th>
                      <th colspan=""2"">Partner's Choice</th>
                    </tr>
                    <tr>
                      <th>A</th>
                      <th>B</th>
                    </tr>
                    <tr>
                      <th>A</th>
                      <td>(4,4)</td>
                      <td>(0,5)</td>
                    </tr>
                    <tr>
                      <th>B</th>
                      <td>(5,0)</td>
                      <td>(1,1)</td>
                    </tr>
                  </table>
              ","38452","","","","","","","","[{""page_index"":0,""viewing_time"":3357},{""page_index"":1,""viewing_time"":5033},{""page_index"":2,""viewing_time"":3049},{""page_index"":3,""viewing_time"":18698},{""page_index"":4,""viewing_time"":1937},{""page_index"":5,""viewing_time"":1730},{""page_index"":6,""viewing_time"":1433},{""page_index"":7,""viewing_time"":1800},{""page_index"":8,""viewing_time"":1415}]","","","","","","","","",""
"decision","4","65016","0.0-4.0","no_com_bot","
                  <table class=""payoff-matrix"">
                    <tr>
                      <th rowspan=""2"">Your Choice</th>
                      <th colspan=""2"">Partner's Choice</th>
                    </tr>
                    <tr>
                      <th>A</th>
                      <th>B</th>
                    </tr>
                    <tr>
                      <th>A</th>
                      <td>(4,4)</td>
                      <td>(0,5)</td>
                    </tr>
                    <tr>
                      <th>B</th>
                      <td>(5,0)</td>
                      <td>(1,1)</td>
                    </tr>
                  </table>
              ","9366","
          <p>Practice 1: Decision Phase</p>
          <p>You have <span id=""decision-countdown"">30</span> seconds to make your choice.</p>
          <p>Choose your action:</p>
          
          <table class=""payoff-matrix"">
            <tr>
              <th rowspan=""2"">Your Choice</th>
              <th colspan=""2"">Partner's Choice</th>
            </tr>
            <tr>
              <th>A</th>
              <th>B</th>
            </tr>
            <tr>
              <th>A</th>
              <td>(3,3)</td>
              <td>(0,5)</td>
            </tr>
            <tr>
              <th>B</th>
              <td>(5,0)</td>
              <td>(1,1)</td>
            </tr>
          </table>
        
        ","0","","","","","","","practice","1","true","A","A","3","3","",""
"html-button-response","5","69530","0.0-5.0","no_com_bot","
                  <table class=""payoff-matrix"">
                    <tr>
                      <th rowspan=""2"">Your Choice</th>
                      <th colspan=""2"">Partner's Choice</th>
                    </tr>
                    <tr>
                      <th>A</th>
                      <th>B</th>
                    </tr>
                    <tr>
                      <th>A</th>
                      <td>(4,4)</td>
                      <td>(0,5)</td>
                    </tr>
                    <tr>
                      <th>B</th>
                      <td>(5,0)</td>
                      <td>(1,1)</td>
                    </tr>
                  </table>
              ","4508","
          <p>Results of Practice 1:</p>
          <p>You chose: A</p>
          <p>Your partner chose: A</p>
          
    <table class=""payoff-matrix"">
      <tr>
        <th rowspan=""2"">Your Choice</th>
        <th colspan=""2"">Partner's Choice</th>
      </tr>
      <tr>
        <th>A</th>
        <th>B</th>
      </tr>
      <tr>
        <th>A</th>
        <td id=""cell-AA"">(3,3)</td>
        <td id=""cell-AB"">(0,5)</td>
      </tr>
      <tr>
        <th>B</th>
        <td id=""cell-BA"">(5,0)</td>
        <td id=""cell-BB"">(1,1)</td>
      </tr>
    </table>
    <style>
      #cell-AA {
        background-color: yellow;
      }
    </style>
  
          <p>Your payoff this round: <strong>3</strong></p>
          <p>Practice rounds do not count towards your total fictional payoff.</p>
        ","0","","","","","","","practice","1","true","","","","","",""
"decision","6","72380","0.0-6.0","no_com_bot","
                  <table class=""payoff-matrix"">
                    <tr>
                      <th rowspan=""2"">Your Choice</th>
                      <th colspan=""2"">Partner's Choice</th>
                    </tr>
                    <tr>
                      <th>A</th>
                      <th>B</th>
                    </tr>
                    <tr>
                      <th>A</th>
                      <td>(4,4)</td>
                      <td>(0,5)</td>
                    </tr>
                    <tr>
                      <th>B</th>
                      <td>(5,0)</td>
                      <td>(1,1)</td>
                    </tr>
                  </table>
              ","2848","
          <p>Practice 2: Decision Phase</p>
          <p>You have <span id=""decision-countdown"">30</span> seconds to make your choice.</p>
          <p>Choose your action:</p>
          
          <table class=""payoff-matrix"">
            <tr>
              <th rowspan=""2"">Your Choice</th>
              <th colspan=""2"">Partner's Choice</th>
            </tr>
            <tr>
              <th>A</th>
              <th>B</th>
            </tr>
            <tr>
              <th>A</th>
              <td>(3,3)</td>
              <td>(0,5)</td>
            </tr>
            <tr>
              <th>B</th>
              <td>(5,0)</td>
              <td>(1,1)</td>
            </tr>
          </table>
        
        ","0","","","","","","","practice","2","true","A","A","3","3","",""
"html-button-response","7","76132","0.0-7.0","no_com_bot","
                  <table class=""payoff-matrix"">
                    <tr>
                      <th rowspan=""2"">Your Choice</th>
                      <th colspan=""2"">Partner's Choice</th>
                    </tr>
                    <tr>
                      <th>A</th>
                      <th>B</th>
                    </tr>
                    <tr>
                      <th>A</th>
                      <td>(4,4)</td>
                      <td>(0,5)</td>
                    </tr>
                    <tr>
                      <th>B</th>
                      <td>(5,0)</td>
                      <td>(1,1)</td>
                    </tr>
                  </table>
              ","3751","
          <p>Results of Practice 2:</p>
          <p>You chose: A</p>
          <p>Your partner chose: A</p>
          
    <table class=""payoff-matrix"">
      <tr>
        <th rowspan=""2"">Your Choice</th>
        <th colspan=""2"">Partner's Choice</th>
      </tr>
      <tr>
        <th>A</th>
        <th>B</th>
      </tr>
      <tr>
        <th>A</th>
        <td id=""cell-AA"">(3,3)</td>
        <td id=""cell-AB"">(0,5)</td>
      </tr>
      <tr>
        <th>B</th>
        <td id=""cell-BA"">(5,0)</td>
        <td id=""cell-BB"">(1,1)</td>
      </tr>
    </table>
    <style>
      #cell-AA {
        background-color: yellow;
      }
    </style>
  
          <p>Your payoff this round: <strong>3</strong></p>
          <p>Practice rounds do not count towards your total fictional payoff.</p>
        ","0","","","","","","","practice","2","true","","","","","",""
"decision","8","77866","0.0-8.0","no_com_bot","
                  <table class=""payoff-matrix"">
                    <tr>
                      <th rowspan=""2"">Your Choice</th>
                      <th colspan=""2"">Partner's Choice</th>
                    </tr>
                    <tr>
                      <th>A</th>
                      <th>B</th>
                    </tr>
                    <tr>
                      <th>A</th>
                      <td>(4,4)</td>
                      <td>(0,5)</td>
                    </tr>
                    <tr>
                      <th>B</th>
                      <td>(5,0)</td>
                      <td>(1,1)</td>
                    </tr>
                  </table>
              ","1726","
          <p>Practice 3: Decision Phase</p>
          <p>You have <span id=""decision-countdown"">30</span> seconds to make your choice.</p>
          <p>Choose your action:</p>
          
          <table class=""payoff-matrix"">
            <tr>
              <th rowspan=""2"">Your Choice</th>
              <th colspan=""2"">Partner's Choice</th>
            </tr>
            <tr>
              <th>A</th>
              <th>B</th>
            </tr>
            <tr>
              <th>A</th>
              <td>(3,3)</td>
              <td>(0,5)</td>
            </tr>
            <tr>
              <th>B</th>
              <td>(5,0)</td>
              <td>(1,1)</td>
            </tr>
          </table>
        
        ","0","","","","","","","practice","3","true","A","A","3","3","",""
"html-button-response","9","80681","0.0-9.0","no_com_bot","
                  <table class=""payoff-matrix"">
                    <tr>
                      <th rowspan=""2"">Your Choice</th>
                      <th colspan=""2"">Partner's Choice</th>
                    </tr>
                    <tr>
                      <th>A</th>
                      <th>B</th>
                    </tr>
                    <tr>
                      <th>A</th>
                      <td>(4,4)</td>
                      <td>(0,5)</td>
                    </tr>
                    <tr>
                      <th>B</th>
                      <td>(5,0)</td>
                      <td>(1,1)</td>
                    </tr>
                  </table>
              ","2812","
          <p>Results of Practice 3:</p>
          <p>You chose: A</p>
          <p>Your partner chose: A</p>
          
    <table class=""payoff-matrix"">
      <tr>
        <th rowspan=""2"">Your Choice</th>
        <th colspan=""2"">Partner's Choice</th>
      </tr>
      <tr>
        <th>A</th>
        <th>B</th>
      </tr>
      <tr>
        <th>A</th>
        <td id=""cell-AA"">(3,3)</td>
        <td id=""cell-AB"">(0,5)</td>
      </tr>
      <tr>
        <th>B</th>
        <td id=""cell-BA"">(5,0)</td>
        <td id=""cell-BB"">(1,1)</td>
      </tr>
    </table>
    <style>
      #cell-AA {
        background-color: yellow;
      }
    </style>
  
          <p>Your payoff this round: <strong>3</strong></p>
          <p>Practice rounds do not count towards your total fictional payoff.</p>
        ","0","","","","","","","practice","3","true","","","","","",""
"html-button-response","10","84298","0.0-10.0","no_com_bot","
                  <table class=""payoff-matrix"">
                    <tr>
                      <th rowspan=""2"">Your Choice</th>
                      <th colspan=""2"">Partner's Choice</th>
                    </tr>
                    <tr>
                      <th>A</th>
                      <th>B</th>
                    </tr>
                    <tr>
                      <th>A</th>
                      <td>(4,4)</td>
                      <td>(0,5)</td>
                    </tr>
                    <tr>
                      <th>B</th>
                      <td>(5,0)</td>
                      <td>(1,1)</td>
                    </tr>
                  </table>
              ","3613","<p>You have completed the practice rounds. When you are ready, press the button below to start the main experiment.</p>","0","","","","","","","","","","","","","","",""
"call-function","11","84300","0.0-11.0","no_com_bot","
                  <table class=""payoff-matrix"">
                    <tr>
                      <th rowspan=""2"">Your Choice</th>
                      <th colspan=""2"">Partner's Choice</th>
                    </tr>
                    <tr>
                      <th>A</th>
                      <th>B</th>
                    </tr>
                    <tr>
                      <th>A</th>
                      <td>(4,4)</td>
                      <td>(0,5)</td>
                    </tr>
                    <tr>
                      <th>B</th>
                      <td>(5,0)</td>
                      <td>(1,1)</td>
                    </tr>
                  </table>
              ","","","","","","","","","","","","","","","","","",""
"decision","12","87298","0.0-12.0","no_com_bot","
                  <table class=""payoff-matrix"">
                    <tr>
                      <th rowspan=""2"">Your Choice</th>
                      <th colspan=""2"">Partner's Choice</th>
                    </tr>
                    <tr>
                      <th>A</th>
                      <th>B</th>
                    </tr>
                    <tr>
                      <th>A</th>
                      <td>(4,4)</td>
                      <td>(0,5)</td>
                    </tr>
                    <tr>
                      <th>B</th>
                      <td>(5,0)</td>
                      <td>(1,1)</td>
                    </tr>
                  </table>
              ","2992","
                  <p>Round 1: Decision Phase</p>
                  <p>You have <span id=""decision-countdown"">30</span> seconds to make your choice.</p>
                  <p>Choose your action:</p>
                  
                  <table class=""payoff-matrix"">
                    <tr>
                      <th rowspan=""2"">Your Choice</th>
                      <th colspan=""2"">Partner's Choice</th>
                    </tr>
                    <tr>
                      <th>A</th>
                      <th>B</th>
                    </tr>
                    <tr>
                      <th>A</th>
                      <td>(3,3)</td>
                      <td>(0,5)</td>
                    </tr>
                    <tr>
                      <th>B</th>
                      <td>(5,0)</td>
                      <td>(2,2)</td>
                    </tr>
                  </table>
              
              ","0","","","","","","","experiment","1","false","A","A","3","3","","4"
"feedback","13","89464","0.0-13.0","no_com_bot","
                  <table class=""payoff-matrix"">
                    <tr>
                      <th rowspan=""2"">Your Choice</th>
                      <th colspan=""2"">Partner's Choice</th>
                    </tr>
                    <tr>
                      <th>A</th>
                      <th>B</th>
                    </tr>
                    <tr>
                      <th>A</th>
                      <td>(4,4)</td>
                      <td>(0,5)</td>
                    </tr>
                    <tr>
                      <th>B</th>
                      <td>(5,0)</td>
                      <td>(1,1)</td>
                    </tr>
                  </table>
              ","2161","
                <p>Results of Round 1:</p>
                <p>You chose: A</p>
                <p>Your partner chose: A</p>
                
      
      <table class=""payoff-matrix"">
        <tr>
          <th rowspan=""2"">Your Choice</th>
          <th colspan=""2"">Partner's Choice</th>
        </tr>
        <tr>
          <th>A</th>
          <th>B</th>
        </tr>
        <tr>
          <th>A</th>
          <td id=""cell-AA"">(3,3)</td>
          <td id=""cell-AB"">(0,5)</td>
        </tr>
        <tr>
          <th>B</th>
          <td id=""cell-BA"">(5,0)</td>
          <td id=""cell-BB"">(2,2)</td>
        </tr>
      </table>
      <style>
        #cell-AA {
          background-color: yellow;
        }
      </style>
  
  
                <p>Your payoff this round: <strong>3</strong></p>
                <p>Your total payoff: 3</p>
            ","0","","","","","","","experiment","1","false","","","","","","4"
"decision","14","92762","0.0-14.0","no_com_bot","
                  <table class=""payoff-matrix"">
                    <tr>
                      <th rowspan=""2"">Your Choice</th>
                      <th colspan=""2"">Partner's Choice</th>
                    </tr>
                    <tr>
                      <th>A</th>
                      <th>B</th>
                    </tr>
                    <tr>
                      <th>A</th>
                      <td>(4,4)</td>
                      <td>(0,5)</td>
                    </tr>
                    <tr>
                      <th>B</th>
                      <td>(5,0)</td>
                      <td>(1,1)</td>
                    </tr>
                  </table>
              ","3291","
                  <p>Round 2: Decision Phase</p>
                  <p>You have <span id=""decision-countdown"">30</span> seconds to make your choice.</p>
                  <p>Choose your action:</p>
                  
                  <table class=""payoff-matrix"">
                    <tr>
                      <th rowspan=""2"">Your Choice</th>
                      <th colspan=""2"">Partner's Choice</th>
                    </tr>
                    <tr>
                      <th>A</th>
                      <th>B</th>
                    </tr>
                    <tr>
                      <th>A</th>
                      <td>(3,3)</td>
                      <td>(0,5)</td>
                    </tr>
                    <tr>
                      <th>B</th>
                      <td>(5,0)</td>
                      <td>(2,2)</td>
                    </tr>
                  </table>
              
              ","0","","","","","","","experiment","2","false","A","A","3","3","","4"
"feedback","15","94797","0.0-15.0","no_com_bot","
                  <table class=""payoff-matrix"">
                    <tr>
                      <th rowspan=""2"">Your Choice</th>
                      <th colspan=""2"">Partner's Choice</th>
                    </tr>
                    <tr>
                      <th>A</th>
                      <th>B</th>
                    </tr>
                    <tr>
                      <th>A</th>
                      <td>(4,4)</td>
                      <td>(0,5)</td>
                    </tr>
                    <tr>
                      <th>B</th>
                      <td>(5,0)</td>
                      <td>(1,1)</td>
                    </tr>
                  </table>
              ","2034","
                <p>Results of Round 2:</p>
                <p>You chose: A</p>
                <p>Your partner chose: A</p>
                
      
      <table class=""payoff-matrix"">
        <tr>
          <th rowspan=""2"">Your Choice</th>
          <th colspan=""2"">Partner's Choice</th>
        </tr>
        <tr>
          <th>A</th>
          <th>B</th>
        </tr>
        <tr>
          <th>A</th>
          <td id=""cell-AA"">(3,3)</td>
          <td id=""cell-AB"">(0,5)</td>
        </tr>
        <tr>
          <th>B</th>
          <td id=""cell-BA"">(5,0)</td>
          <td id=""cell-BB"">(2,2)</td>
        </tr>
      </table>
      <style>
        #cell-AA {
          background-color: yellow;
        }
      </style>
  
  
                <p>Your payoff this round: <strong>3</strong></p>
                <p>Your total payoff: 6</p>
            ","0","","","","","","","experiment","2","false","","","","","","4"
"decision","16","97198","0.0-16.0","no_com_bot","
                  <table class=""payoff-matrix"">
                    <tr>
                      <th rowspan=""2"">Your Choice</th>
                      <th colspan=""2"">Partner's Choice</th>
                    </tr>
                    <tr>
                      <th>A</th>
                      <th>B</th>
                    </tr>
                    <tr>
                      <th>A</th>
                      <td>(4,4)</td>
                      <td>(0,5)</td>
                    </tr>
                    <tr>
                      <th>B</th>
                      <td>(5,0)</td>
                      <td>(1,1)</td>
                    </tr>
                  </table>
              ","2394","
                  <p>Round 3: Decision Phase</p>
                  <p>You have <span id=""decision-countdown"">30</span> seconds to make your choice.</p>
                  <p>Choose your action:</p>
                  
                  <table class=""payoff-matrix"">
                    <tr>
                      <th rowspan=""2"">Your Choice</th>
                      <th colspan=""2"">Partner's Choice</th>
                    </tr>
                    <tr>
                      <th>A</th>
                      <th>B</th>
                    </tr>
                    <tr>
                      <th>A</th>
                      <td>(3,3)</td>
                      <td>(0,5)</td>
                    </tr>
                    <tr>
                      <th>B</th>
                      <td>(5,0)</td>
                      <td>(2,2)</td>
                    </tr>
                  </table>
              
              ","1","","","","","","","experiment","3","false","B","A","5","0","","4"
"feedback","17","99764","0.0-17.0","no_com_bot","
                  <table class=""payoff-matrix"">
                    <tr>
                      <th rowspan=""2"">Your Choice</th>
                      <th colspan=""2"">Partner's Choice</th>
                    </tr>
                    <tr>
                      <th>A</th>
                      <th>B</th>
                    </tr>
                    <tr>
                      <th>A</th>
                      <td>(4,4)</td>
                      <td>(0,5)</td>
                    </tr>
                    <tr>
                      <th>B</th>
                      <td>(5,0)</td>
                      <td>(1,1)</td>
                    </tr>
                  </table>
              ","2562","
                <p>Results of Round 3:</p>
                <p>You chose: B</p>
                <p>Your partner chose: A</p>
                
      
      <table class=""payoff-matrix"">
        <tr>
          <th rowspan=""2"">Your Choice</th>
          <th colspan=""2"">Partner's Choice</th>
        </tr>
        <tr>
          <th>A</th>
          <th>B</th>
        </tr>
        <tr>
          <th>A</th>
          <td id=""cell-AA"">(3,3)</td>
          <td id=""cell-AB"">(0,5)</td>
        </tr>
        <tr>
          <th>B</th>
          <td id=""cell-BA"">(5,0)</td>
          <td id=""cell-BB"">(2,2)</td>
        </tr>
      </table>
      <style>
        #cell-BA {
          background-color: yellow;
        }
      </style>
  
  
                <p>Your payoff this round: <strong>5</strong></p>
                <p>Your total payoff: 11</p>
            ","0","","","","","","","experiment","3","false","","","","","","4"
"decision","18","105081","0.0-18.0","no_com_bot","
                  <table class=""payoff-matrix"">
                    <tr>
                      <th rowspan=""2"">Your Choice</th>
                      <th colspan=""2"">Partner's Choice</th>
                    </tr>
                    <tr>
                      <th>A</th>
                      <th>B</th>
                    </tr>
                    <tr>
                      <th>A</th>
                      <td>(4,4)</td>
                      <td>(0,5)</td>
                    </tr>
                    <tr>
                      <th>B</th>
                      <td>(5,0)</td>
                      <td>(1,1)</td>
                    </tr>
                  </table>
              ","5311","
                  <p>Round 4: Decision Phase</p>
                  <p>You have <span id=""decision-countdown"">30</span> seconds to make your choice.</p>
                  <p>Choose your action:</p>
                  
                  <table class=""payoff-matrix"">
                    <tr>
                      <th rowspan=""2"">Your Choice</th>
                      <th colspan=""2"">Partner's Choice</th>
                    </tr>
                    <tr>
                      <th>A</th>
                      <th>B</th>
                    </tr>
                    <tr>
                      <th>A</th>
                      <td>(4,4)</td>
                      <td>(0,5)</td>
                    </tr>
                    <tr>
                      <th>B</th>
                      <td>(5,0)</td>
                      <td>(1,1)</td>
                    </tr>
                  </table>
              
              ","0","","","","","","","experiment","4","false","A","B","0","5","","2"
"feedback","19","108213","0.0-19.0","no_com_bot","
                  <table class=""payoff-matrix"">
                    <tr>
                      <th rowspan=""2"">Your Choice</th>
                      <th colspan=""2"">Partner's Choice</th>
                    </tr>
                    <tr>
                      <th>A</th>
                      <th>B</th>
                    </tr>
                    <tr>
                      <th>A</th>
                      <td>(4,4)</td>
                      <td>(0,5)</td>
                    </tr>
                    <tr>
                      <th>B</th>
                      <td>(5,0)</td>
                      <td>(1,1)</td>
                    </tr>
                  </table>
              ","3128","
                <p>Results of Round 4:</p>
                <p>You chose: A</p>
                <p>Your partner chose: B</p>
                
      
      <table class=""payoff-matrix"">
        <tr>
          <th rowspan=""2"">Your Choice</th>
          <th colspan=""2"">Partner's Choice</th>
        </tr>
        <tr>
          <th>A</th>
          <th>B</th>
        </tr>
        <tr>
          <th>A</th>
          <td id=""cell-AA"">(4,4)</td>
          <td id=""cell-AB"">(0,5)</td>
        </tr>
        <tr>
          <th>B</th>
          <td id=""cell-BA"">(5,0)</td>
          <td id=""cell-BB"">(1,1)</td>
        </tr>
      </table>
      <style>
        #cell-AB {
          background-color: yellow;
        }
      </style>
  
  
                <p>Your payoff this round: <strong>0</strong></p>
                <p>Your total payoff: 11</p>
            ","0","","","","","","","experiment","4","false","","","","","","2"
"decision","20","109880","0.0-20.0","no_com_bot","
                  <table class=""payoff-matrix"">
                    <tr>
                      <th rowspan=""2"">Your Choice</th>
                      <th colspan=""2"">Partner's Choice</th>
                    </tr>
                    <tr>
                      <th>A</th>
                      <th>B</th>
                    </tr>
                    <tr>
                      <th>A</th>
                      <td>(4,4)</td>
                      <td>(0,5)</td>
                    </tr>
                    <tr>
                      <th>B</th>
                      <td>(5,0)</td>
                      <td>(1,1)</td>
                    </tr>
                  </table>
              ","1661","
                  <p>Round 5: Decision Phase</p>
                  <p>You have <span id=""decision-countdown"">30</span> seconds to make your choice.</p>
                  <p>Choose your action:</p>
                  
                  <table class=""payoff-matrix"">
                    <tr>
                      <th rowspan=""2"">Your Choice</th>
                      <th colspan=""2"">Partner's Choice</th>
                    </tr>
                    <tr>
                      <th>A</th>
                      <th>B</th>
                    </tr>
                    <tr>
                      <th>A</th>
                      <td>(4,4)</td>
                      <td>(0,5)</td>
                    </tr>
                    <tr>
                      <th>B</th>
                      <td>(5,0)</td>
                      <td>(1,1)</td>
                    </tr>
                  </table>
              
              ","1","","","","","","","experiment","5","false","B","A","5","0","","2"
"feedback","21","112030","0.0-21.0","no_com_bot","
                  <table class=""payoff-matrix"">
                    <tr>
                      <th rowspan=""2"">Your Choice</th>
                      <th colspan=""2"">Partner's Choice</th>
                    </tr>
                    <tr>
                      <th>A</th>
                      <th>B</th>
                    </tr>
                    <tr>
                      <th>A</th>
                      <td>(4,4)</td>
                      <td>(0,5)</td>
                    </tr>
                    <tr>
                      <th>B</th>
                      <td>(5,0)</td>
                      <td>(1,1)</td>
                    </tr>
                  </table>
              ","2145","
                <p>Results of Round 5:</p>
                <p>You chose: B</p>
                <p>Your partner chose: A</p>
                
      
      <table class=""payoff-matrix"">
        <tr>
          <th rowspan=""2"">Your Choice</th>
          <th colspan=""2"">Partner's Choice</th>
        </tr>
        <tr>
          <th>A</th>
          <th>B</th>
        </tr>
        <tr>
          <th>A</th>
          <td id=""cell-AA"">(4,4)</td>
          <td id=""cell-AB"">(0,5)</td>
        </tr>
        <tr>
          <th>B</th>
          <td id=""cell-BA"">(5,0)</td>
          <td id=""cell-BB"">(1,1)</td>
        </tr>
      </table>
      <style>
        #cell-BA {
          background-color: yellow;
        }
      </style>
  
  
                <p>Your payoff this round: <strong>5</strong></p>
                <p>Your total payoff: 16</p>
            ","0","","","","","","","experiment","5","false","","","","","","2"
"decision","22","114297","0.0-22.0","no_com_bot","
                  <table class=""payoff-matrix"">
                    <tr>
                      <th rowspan=""2"">Your Choice</th>
                      <th colspan=""2"">Partner's Choice</th>
                    </tr>
                    <tr>
                      <th>A</th>
                      <th>B</th>
                    </tr>
                    <tr>
                      <th>A</th>
                      <td>(4,4)</td>
                      <td>(0,5)</td>
                    </tr>
                    <tr>
                      <th>B</th>
                      <td>(5,0)</td>
                      <td>(1,1)</td>
                    </tr>
                  </table>
              ","2261","
                  <p>Round 6: Decision Phase</p>
                  <p>You have <span id=""decision-countdown"">30</span> seconds to make your choice.</p>
                  <p>Choose your action:</p>
                  
                  <table class=""payoff-matrix"">
                    <tr>
                      <th rowspan=""2"">Your Choice</th>
                      <th colspan=""2"">Partner's Choice</th>
                    </tr>
                    <tr>
                      <th>A</th>
                      <th>B</th>
                    </tr>
                    <tr>
                      <th>A</th>
                      <td>(3,3)</td>
                      <td>(0,5)</td>
                    </tr>
                    <tr>
                      <th>B</th>
                      <td>(5,0)</td>
                      <td>(1,1)</td>
                    </tr>
                  </table>
              
              ","0","","","","","","","experiment","6","false","A","B","0","5","","1"
"feedback","23","115763","0.0-23.0","no_com_bot","
                  <table class=""payoff-matrix"">
                    <tr>
                      <th rowspan=""2"">Your Choice</th>
                      <th colspan=""2"">Partner's Choice</th>
                    </tr>
                    <tr>
                      <th>A</th>
                      <th>B</th>
                    </tr>
                    <tr>
                      <th>A</th>
                      <td>(4,4)</td>
                      <td>(0,5)</td>
                    </tr>
                    <tr>
                      <th>B</th>
                      <td>(5,0)</td>
                      <td>(1,1)</td>
                    </tr>
                  </table>
              ","1462","
                <p>Results of Round 6:</p>
                <p>You chose: A</p>
                <p>Your partner chose: B</p>
                
      
      <table class=""payoff-matrix"">
        <tr>
          <th rowspan=""2"">Your Choice</th>
          <th colspan=""2"">Partner's Choice</th>
        </tr>
        <tr>
          <th>A</th>
          <th>B</th>
        </tr>
        <tr>
          <th>A</th>
          <td id=""cell-AA"">(3,3)</td>
          <td id=""cell-AB"">(0,5)</td>
        </tr>
        <tr>
          <th>B</th>
          <td id=""cell-BA"">(5,0)</td>
          <td id=""cell-BB"">(1,1)</td>
        </tr>
      </table>
      <style>
        #cell-AB {
          background-color: yellow;
        }
      </style>
  
  
                <p>Your payoff this round: <strong>0</strong></p>
                <p>Your total payoff: 16</p>
            ","0","","","","","","","experiment","6","false","","","","","","1"
"decision","24","117313","0.0-24.0","no_com_bot","
                  <table class=""payoff-matrix"">
                    <tr>
                      <th rowspan=""2"">Your Choice</th>
                      <th colspan=""2"">Partner's Choice</th>
                    </tr>
                    <tr>
                      <th>A</th>
                      <th>B</th>
                    </tr>
                    <tr>
                      <th>A</th>
                      <td>(4,4)</td>
                      <td>(0,5)</td>
                    </tr>
                    <tr>
                      <th>B</th>
                      <td>(5,0)</td>
                      <td>(1,1)</td>
                    </tr>
                  </table>
              ","1544","
                  <p>Round 7: Decision Phase</p>
                  <p>You have <span id=""decision-countdown"">30</span> seconds to make your choice.</p>
                  <p>Choose your action:</p>
                  
                  <table class=""payoff-matrix"">
                    <tr>
                      <th rowspan=""2"">Your Choice</th>
                      <th colspan=""2"">Partner's Choice</th>
                    </tr>
                    <tr>
                      <th>A</th>
                      <th>B</th>
                    </tr>
                    <tr>
                      <th>A</th>
                      <td>(4,4)</td>
                      <td>(0,5)</td>
                    </tr>
                    <tr>
                      <th>B</th>
                      <td>(5,0)</td>
                      <td>(1,1)</td>
                    </tr>
                  </table>
              
              ","1","","","","","","","experiment","7","false","B","A","5","0","","2"
"feedback","25","118946","0.0-25.0","no_com_bot","
                  <table class=""payoff-matrix"">
                    <tr>
                      <th rowspan=""2"">Your Choice</th>
                      <th colspan=""2"">Partner's Choice</th>
                    </tr>
                    <tr>
                      <th>A</th>
                      <th>B</th>
                    </tr>
                    <tr>
                      <th>A</th>
                      <td>(4,4)</td>
                      <td>(0,5)</td>
                    </tr>
                    <tr>
                      <th>B</th>
                      <td>(5,0)</td>
                      <td>(1,1)</td>
                    </tr>
                  </table>
              ","1629","
                <p>Results of Round 7:</p>
                <p>You chose: B</p>
                <p>Your partner chose: A</p>
                
      
      <table class=""payoff-matrix"">
        <tr>
          <th rowspan=""2"">Your Choice</th>
          <th colspan=""2"">Partner's Choice</th>
        </tr>
        <tr>
          <th>A</th>
          <th>B</th>
        </tr>
        <tr>
          <th>A</th>
          <td id=""cell-AA"">(4,4)</td>
          <td id=""cell-AB"">(0,5)</td>
        </tr>
        <tr>
          <th>B</th>
          <td id=""cell-BA"">(5,0)</td>
          <td id=""cell-BB"">(1,1)</td>
        </tr>
      </table>
      <style>
        #cell-BA {
          background-color: yellow;
        }
      </style>
  
  
                <p>Your payoff this round: <strong>5</strong></p>
                <p>Your total payoff: 21</p>
            ","0","","","","","","","experiment","7","false","","","","","","2"
"decision","26","121013","0.0-26.0","no_com_bot","
                  <table class=""payoff-matrix"">
                    <tr>
                      <th rowspan=""2"">Your Choice</th>
                      <th colspan=""2"">Partner's Choice</th>
                    </tr>
                    <tr>
                      <th>A</th>
                      <th>B</th>
                    </tr>
                    <tr>
                      <th>A</th>
                      <td>(4,4)</td>
                      <td>(0,5)</td>
                    </tr>
                    <tr>
                      <th>B</th>
                      <td>(5,0)</td>
                      <td>(1,1)</td>
                    </tr>
                  </table>
              ","2061","
                  <p>Round 8: Decision Phase</p>
                  <p>You have <span id=""decision-countdown"">30</span> seconds to make your choice.</p>
                  <p>Choose your action:</p>
                  
                  <table class=""payoff-matrix"">
                    <tr>
                      <th rowspan=""2"">Your Choice</th>
                      <th colspan=""2"">Partner's Choice</th>
                    </tr>
                    <tr>
                      <th>A</th>
                      <th>B</th>
                    </tr>
                    <tr>
                      <th>A</th>
                      <td>(3,3)</td>
                      <td>(0,4)</td>
                    </tr>
                    <tr>
                      <th>B</th>
                      <td>(4,0)</td>
                      <td>(1,1)</td>
                    </tr>
                  </table>
              
              ","1","","","","","","","experiment","8","false","B","B","1","1","","3"
"feedback","27","122979","0.0-27.0","no_com_bot","
                  <table class=""payoff-matrix"">
                    <tr>
                      <th rowspan=""2"">Your Choice</th>
                      <th colspan=""2"">Partner's Choice</th>
                    </tr>
                    <tr>
                      <th>A</th>
                      <th>B</th>
                    </tr>
                    <tr>
                      <th>A</th>
                      <td>(4,4)</td>
                      <td>(0,5)</td>
                    </tr>
                    <tr>
                      <th>B</th>
                      <td>(5,0)</td>
                      <td>(1,1)</td>
                    </tr>
                  </table>
              ","1962","
                <p>Results of Round 8:</p>
                <p>You chose: B</p>
                <p>Your partner chose: B</p>
                
      
      <table class=""payoff-matrix"">
        <tr>
          <th rowspan=""2"">Your Choice</th>
          <th colspan=""2"">Partner's Choice</th>
        </tr>
        <tr>
          <th>A</th>
          <th>B</th>
        </tr>
        <tr>
          <th>A</th>
          <td id=""cell-AA"">(3,3)</td>
          <td id=""cell-AB"">(0,4)</td>
        </tr>
        <tr>
          <th>B</th>
          <td id=""cell-BA"">(4,0)</td>
          <td id=""cell-BB"">(1,1)</td>
        </tr>
      </table>
      <style>
        #cell-BB {
          background-color: yellow;
        }
      </style>
  
  
                <p>Your payoff this round: <strong>1</strong></p>
                <p>Your total payoff: 22</p>
            ","0","","","","","","","experiment","8","false","","","","","","3"
"decision","28","124263","0.0-28.0","no_com_bot","
                  <table class=""payoff-matrix"">
                    <tr>
                      <th rowspan=""2"">Your Choice</th>
                      <th colspan=""2"">Partner's Choice</th>
                    </tr>
                    <tr>
                      <th>A</th>
                      <th>B</th>
                    </tr>
                    <tr>
                      <th>A</th>
                      <td>(4,4)</td>
                      <td>(0,5)</td>
                    </tr>
                    <tr>
                      <th>B</th>
                      <td>(5,0)</td>
                      <td>(1,1)</td>
                    </tr>
                  </table>
              ","1277","
                  <p>Round 9: Decision Phase</p>
                  <p>You have <span id=""decision-countdown"">30</span> seconds to make your choice.</p>
                  <p>Choose your action:</p>
                  
                  <table class=""payoff-matrix"">
                    <tr>
                      <th rowspan=""2"">Your Choice</th>
                      <th colspan=""2"">Partner's Choice</th>
                    </tr>
                    <tr>
                      <th>A</th>
                      <th>B</th>
                    </tr>
                    <tr>
                      <th>A</th>
                      <td>(4,4)</td>
                      <td>(0,5)</td>
                    </tr>
                    <tr>
                      <th>B</th>
                      <td>(5,0)</td>
                      <td>(1,1)</td>
                    </tr>
                  </table>
              
              ","1","","","","","","","experiment","9","false","B","B","1","1","","2"
"feedback","29","125962","0.0-29.0","no_com_bot","
                  <table class=""payoff-matrix"">
                    <tr>
                      <th rowspan=""2"">Your Choice</th>
                      <th colspan=""2"">Partner's Choice</th>
                    </tr>
                    <tr>
                      <th>A</th>
                      <th>B</th>
                    </tr>
                    <tr>
                      <th>A</th>
                      <td>(4,4)</td>
                      <td>(0,5)</td>
                    </tr>
                    <tr>
                      <th>B</th>
                      <td>(5,0)</td>
                      <td>(1,1)</td>
                    </tr>
                  </table>
              ","1695","
                <p>Results of Round 9:</p>
                <p>You chose: B</p>
                <p>Your partner chose: B</p>
                
      
      <table class=""payoff-matrix"">
        <tr>
          <th rowspan=""2"">Your Choice</th>
          <th colspan=""2"">Partner's Choice</th>
        </tr>
        <tr>
          <th>A</th>
          <th>B</th>
        </tr>
        <tr>
          <th>A</th>
          <td id=""cell-AA"">(4,4)</td>
          <td id=""cell-AB"">(0,5)</td>
        </tr>
        <tr>
          <th>B</th>
          <td id=""cell-BA"">(5,0)</td>
          <td id=""cell-BB"">(1,1)</td>
        </tr>
      </table>
      <style>
        #cell-BB {
          background-color: yellow;
        }
      </style>
  
  
                <p>Your payoff this round: <strong>1</strong></p>
                <p>Your total payoff: 23</p>
            ","0","","","","","","","experiment","9","false","","","","","","2"
"decision","30","128045","0.0-30.0","no_com_bot","
                  <table class=""payoff-matrix"">
                    <tr>
                      <th rowspan=""2"">Your Choice</th>
                      <th colspan=""2"">Partner's Choice</th>
                    </tr>
                    <tr>
                      <th>A</th>
                      <th>B</th>
                    </tr>
                    <tr>
                      <th>A</th>
                      <td>(4,4)</td>
                      <td>(0,5)</td>
                    </tr>
                    <tr>
                      <th>B</th>
                      <td>(5,0)</td>
                      <td>(1,1)</td>
                    </tr>
                  </table>
              ","2078","
                  <p>Round 10: Decision Phase</p>
                  <p>You have <span id=""decision-countdown"">30</span> seconds to make your choice.</p>
                  <p>Choose your action:</p>
                  
                  <table class=""payoff-matrix"">
                    <tr>
                      <th rowspan=""2"">Your Choice</th>
                      <th colspan=""2"">Partner's Choice</th>
                    </tr>
                    <tr>
                      <th>A</th>
                      <th>B</th>
                    </tr>
                    <tr>
                      <th>A</th>
                      <td>(3,3)</td>
                      <td>(0,5)</td>
                    </tr>
                    <tr>
                      <th>B</th>
                      <td>(5,0)</td>
                      <td>(2,2)</td>
                    </tr>
                  </table>
              
              ","1","","","","","","","experiment","10","false","B","B","2","2","","4"
"feedback","31","130079","0.0-31.0","no_com_bot","
                  <table class=""payoff-matrix"">
                    <tr>
                      <th rowspan=""2"">Your Choice</th>
                      <th colspan=""2"">Partner's Choice</th>
                    </tr>
                    <tr>
                      <th>A</th>
                      <th>B</th>
                    </tr>
                    <tr>
                      <th>A</th>
                      <td>(4,4)</td>
                      <td>(0,5)</td>
                    </tr>
                    <tr>
                      <th>B</th>
                      <td>(5,0)</td>
                      <td>(1,1)</td>
                    </tr>
                  </table>
              ","2024","
                <p>Results of Round 10:</p>
                <p>You chose: B</p>
                <p>Your partner chose: B</p>
                
      
      <table class=""payoff-matrix"">
        <tr>
          <th rowspan=""2"">Your Choice</th>
          <th colspan=""2"">Partner's Choice</th>
        </tr>
        <tr>
          <th>A</th>
          <th>B</th>
        </tr>
        <tr>
          <th>A</th>
          <td id=""cell-AA"">(3,3)</td>
          <td id=""cell-AB"">(0,5)</td>
        </tr>
        <tr>
          <th>B</th>
          <td id=""cell-BA"">(5,0)</td>
          <td id=""cell-BB"">(2,2)</td>
        </tr>
      </table>
      <style>
        #cell-BB {
          background-color: yellow;
        }
      </style>
  
  
                <p>Your payoff this round: <strong>2</strong></p>
                <p>Your total payoff: 25</p>
            ","0","","","","","","","experiment","10","false","","","","","","4"
"decision","32","132512","0.0-32.0","no_com_bot","
                  <table class=""payoff-matrix"">
                    <tr>
                      <th rowspan=""2"">Your Choice</th>
                      <th colspan=""2"">Partner's Choice</th>
                    </tr>
                    <tr>
                      <th>A</th>
                      <th>B</th>
                    </tr>
                    <tr>
                      <th>A</th>
                      <td>(4,4)</td>
                      <td>(0,5)</td>
                    </tr>
                    <tr>
                      <th>B</th>
                      <td>(5,0)</td>
                      <td>(1,1)</td>
                    </tr>
                  </table>
              ","2424","
                  <p>Round 11: Decision Phase</p>
                  <p>You have <span id=""decision-countdown"">30</span> seconds to make your choice.</p>
                  <p>Choose your action:</p>
                  
                  <table class=""payoff-matrix"">
                    <tr>
                      <th rowspan=""2"">Your Choice</th>
                      <th colspan=""2"">Partner's Choice</th>
                    </tr>
                    <tr>
                      <th>A</th>
                      <th>B</th>
                    </tr>
                    <tr>
                      <th>A</th>
                      <td>(3,3)</td>
                      <td>(0,5)</td>
                    </tr>
                    <tr>
                      <th>B</th>
                      <td>(5,0)</td>
                      <td>(1,1)</td>
                    </tr>
                  </table>
              
              ","1","","","","","","","experiment","11","false","B","B","1","1","","1"
"feedback","33","133933","0.0-33.0","no_com_bot","
                  <table class=""payoff-matrix"">
                    <tr>
                      <th rowspan=""2"">Your Choice</th>
                      <th colspan=""2"">Partner's Choice</th>
                    </tr>
                    <tr>
                      <th>A</th>
                      <th>B</th>
                    </tr>
                    <tr>
                      <th>A</th>
                      <td>(4,4)</td>
                      <td>(0,5)</td>
                    </tr>
                    <tr>
                      <th>B</th>
                      <td>(5,0)</td>
                      <td>(1,1)</td>
                    </tr>
                  </table>
              ","1410","
                <p>Results of Round 11:</p>
                <p>You chose: B</p>
                <p>Your partner chose: B</p>
                
      
      <table class=""payoff-matrix"">
        <tr>
          <th rowspan=""2"">Your Choice</th>
          <th colspan=""2"">Partner's Choice</th>
        </tr>
        <tr>
          <th>A</th>
          <th>B</th>
        </tr>
        <tr>
          <th>A</th>
          <td id=""cell-AA"">(3,3)</td>
          <td id=""cell-AB"">(0,5)</td>
        </tr>
        <tr>
          <th>B</th>
          <td id=""cell-BA"">(5,0)</td>
          <td id=""cell-BB"">(1,1)</td>
        </tr>
      </table>
      <style>
        #cell-BB {
          background-color: yellow;
        }
      </style>
  
  
                <p>Your payoff this round: <strong>1</strong></p>
                <p>Your total payoff: 26</p>
            ","0","","","","","","","experiment","11","false","","","","","","1"
"decision","34","135895","0.0-34.0","no_com_bot","
                  <table class=""payoff-matrix"">
                    <tr>
                      <th rowspan=""2"">Your Choice</th>
                      <th colspan=""2"">Partner's Choice</th>
                    </tr>
                    <tr>
                      <th>A</th>
                      <th>B</th>
                    </tr>
                    <tr>
                      <th>A</th>
                      <td>(4,4)</td>
                      <td>(0,5)</td>
                    </tr>
                    <tr>
                      <th>B</th>
                      <td>(5,0)</td>
                      <td>(1,1)</td>
                    </tr>
                  </table>
              ","1956","
                  <p>Round 12: Decision Phase</p>
                  <p>You have <span id=""decision-countdown"">30</span> seconds to make your choice.</p>
                  <p>Choose your action:</p>
                  
                  <table class=""payoff-matrix"">
                    <tr>
                      <th rowspan=""2"">Your Choice</th>
                      <th colspan=""2"">Partner's Choice</th>
                    </tr>
                    <tr>
                      <th>A</th>
                      <th>B</th>
                    </tr>
                    <tr>
                      <th>A</th>
                      <td>(4,4)</td>
                      <td>(0,5)</td>
                    </tr>
                    <tr>
                      <th>B</th>
                      <td>(5,0)</td>
                      <td>(1,1)</td>
                    </tr>
                  </table>
              
              ","0","","","","","","","experiment","12","false","A","B","0","5","","2"
"feedback","35","137212","0.0-35.0","no_com_bot","
                  <table class=""payoff-matrix"">
                    <tr>
                      <th rowspan=""2"">Your Choice</th>
                      <th colspan=""2"">Partner's Choice</th>
                    </tr>
                    <tr>
                      <th>A</th>
                      <th>B</th>
                    </tr>
                    <tr>
                      <th>A</th>
                      <td>(4,4)</td>
                      <td>(0,5)</td>
                    </tr>
                    <tr>
                      <th>B</th>
                      <td>(5,0)</td>
                      <td>(1,1)</td>
                    </tr>
                  </table>
              ","1313","
                <p>Results of Round 12:</p>
                <p>You chose: A</p>
                <p>Your partner chose: B</p>
                
      
      <table class=""payoff-matrix"">
        <tr>
          <th rowspan=""2"">Your Choice</th>
          <th colspan=""2"">Partner's Choice</th>
        </tr>
        <tr>
          <th>A</th>
          <th>B</th>
        </tr>
        <tr>
          <th>A</th>
          <td id=""cell-AA"">(4,4)</td>
          <td id=""cell-AB"">(0,5)</td>
        </tr>
        <tr>
          <th>B</th>
          <td id=""cell-BA"">(5,0)</td>
          <td id=""cell-BB"">(1,1)</td>
        </tr>
      </table>
      <style>
        #cell-AB {
          background-color: yellow;
        }
      </style>
  
  
                <p>Your payoff this round: <strong>0</strong></p>
                <p>Your total payoff: 26</p>
            ","0","","","","","","","experiment","12","false","","","","","","2"
"decision","36","138163","0.0-36.0","no_com_bot","
                  <table class=""payoff-matrix"">
                    <tr>
                      <th rowspan=""2"">Your Choice</th>
                      <th colspan=""2"">Partner's Choice</th>
                    </tr>
                    <tr>
                      <th>A</th>
                      <th>B</th>
                    </tr>
                    <tr>
                      <th>A</th>
                      <td>(4,4)</td>
                      <td>(0,5)</td>
                    </tr>
                    <tr>
                      <th>B</th>
                      <td>(5,0)</td>
                      <td>(1,1)</td>
                    </tr>
                  </table>
              ","944","
                  <p>Round 13: Decision Phase</p>
                  <p>You have <span id=""decision-countdown"">30</span> seconds to make your choice.</p>
                  <p>Choose your action:</p>
                  
                  <table class=""payoff-matrix"">
                    <tr>
                      <th rowspan=""2"">Your Choice</th>
                      <th colspan=""2"">Partner's Choice</th>
                    </tr>
                    <tr>
                      <th>A</th>
                      <th>B</th>
                    </tr>
                    <tr>
                      <th>A</th>
                      <td>(3,3)</td>
                      <td>(0,5)</td>
                    </tr>
                    <tr>
                      <th>B</th>
                      <td>(5,0)</td>
                      <td>(1,1)</td>
                    </tr>
                  </table>
              
              ","1","","","","","","","experiment","13","false","B","A","5","0","","1"
"feedback","37","139728","0.0-37.0","no_com_bot","
                  <table class=""payoff-matrix"">
                    <tr>
                      <th rowspan=""2"">Your Choice</th>
                      <th colspan=""2"">Partner's Choice</th>
                    </tr>
                    <tr>
                      <th>A</th>
                      <th>B</th>
                    </tr>
                    <tr>
                      <th>A</th>
                      <td>(4,4)</td>
                      <td>(0,5)</td>
                    </tr>
                    <tr>
                      <th>B</th>
                      <td>(5,0)</td>
                      <td>(1,1)</td>
                    </tr>
                  </table>
              ","1561","
                <p>Results of Round 13:</p>
                <p>You chose: B</p>
                <p>Your partner chose: A</p>
                
      
      <table class=""payoff-matrix"">
        <tr>
          <th rowspan=""2"">Your Choice</th>
          <th colspan=""2"">Partner's Choice</th>
        </tr>
        <tr>
          <th>A</th>
          <th>B</th>
        </tr>
        <tr>
          <th>A</th>
          <td id=""cell-AA"">(3,3)</td>
          <td id=""cell-AB"">(0,5)</td>
        </tr>
        <tr>
          <th>B</th>
          <td id=""cell-BA"">(5,0)</td>
          <td id=""cell-BB"">(1,1)</td>
        </tr>
      </table>
      <style>
        #cell-BA {
          background-color: yellow;
        }
      </style>
  
  
                <p>Your payoff this round: <strong>5</strong></p>
                <p>Your total payoff: 31</p>
            ","0","","","","","","","experiment","13","false","","","","","","1"
"decision","38","140744","0.0-38.0","no_com_bot","
                  <table class=""payoff-matrix"">
                    <tr>
                      <th rowspan=""2"">Your Choice</th>
                      <th colspan=""2"">Partner's Choice</th>
                    </tr>
                    <tr>
                      <th>A</th>
                      <th>B</th>
                    </tr>
                    <tr>
                      <th>A</th>
                      <td>(4,4)</td>
                      <td>(0,5)</td>
                    </tr>
                    <tr>
                      <th>B</th>
                      <td>(5,0)</td>
                      <td>(1,1)</td>
                    </tr>
                  </table>
              ","1011","
                  <p>Round 14: Decision Phase</p>
                  <p>You have <span id=""decision-countdown"">30</span> seconds to make your choice.</p>
                  <p>Choose your action:</p>
                  
                  <table class=""payoff-matrix"">
                    <tr>
                      <th rowspan=""2"">Your Choice</th>
                      <th colspan=""2"">Partner's Choice</th>
                    </tr>
                    <tr>
                      <th>A</th>
                      <th>B</th>
                    </tr>
                    <tr>
                      <th>A</th>
                      <td>(3,3)</td>
                      <td>(0,4)</td>
                    </tr>
                    <tr>
                      <th>B</th>
                      <td>(4,0)</td>
                      <td>(1,1)</td>
                    </tr>
                  </table>
              
              ","1","","","","","","","experiment","14","false","B","B","1","1","","3"
"feedback","39","142061","0.0-39.0","no_com_bot","
                  <table class=""payoff-matrix"">
                    <tr>
                      <th rowspan=""2"">Your Choice</th>
                      <th colspan=""2"">Partner's Choice</th>
                    </tr>
                    <tr>
                      <th>A</th>
                      <th>B</th>
                    </tr>
                    <tr>
                      <th>A</th>
                      <td>(4,4)</td>
                      <td>(0,5)</td>
                    </tr>
                    <tr>
                      <th>B</th>
                      <td>(5,0)</td>
                      <td>(1,1)</td>
                    </tr>
                  </table>
              ","1313","
                <p>Results of Round 14:</p>
                <p>You chose: B</p>
                <p>Your partner chose: B</p>
                
      
      <table class=""payoff-matrix"">
        <tr>
          <th rowspan=""2"">Your Choice</th>
          <th colspan=""2"">Partner's Choice</th>
        </tr>
        <tr>
          <th>A</th>
          <th>B</th>
        </tr>
        <tr>
          <th>A</th>
          <td id=""cell-AA"">(3,3)</td>
          <td id=""cell-AB"">(0,4)</td>
        </tr>
        <tr>
          <th>B</th>
          <td id=""cell-BA"">(4,0)</td>
          <td id=""cell-BB"">(1,1)</td>
        </tr>
      </table>
      <style>
        #cell-BB {
          background-color: yellow;
        }
      </style>
  
  
                <p>Your payoff this round: <strong>1</strong></p>
                <p>Your total payoff: 32</p>
            ","0","","","","","","","experiment","14","false","","","","","","3"
"decision","40","143158","0.0-40.0","no_com_bot","
                  <table class=""payoff-matrix"">
                    <tr>
                      <th rowspan=""2"">Your Choice</th>
                      <th colspan=""2"">Partner's Choice</th>
                    </tr>
                    <tr>
                      <th>A</th>
                      <th>B</th>
                    </tr>
                    <tr>
                      <th>A</th>
                      <td>(4,4)</td>
                      <td>(0,5)</td>
                    </tr>
                    <tr>
                      <th>B</th>
                      <td>(5,0)</td>
                      <td>(1,1)</td>
                    </tr>
                  </table>
              ","1091","
                  <p>Round 15: Decision Phase</p>
                  <p>You have <span id=""decision-countdown"">30</span> seconds to make your choice.</p>
                  <p>Choose your action:</p>
                  
                  <table class=""payoff-matrix"">
                    <tr>
                      <th rowspan=""2"">Your Choice</th>
                      <th colspan=""2"">Partner's Choice</th>
                    </tr>
                    <tr>
                      <th>A</th>
                      <th>B</th>
                    </tr>
                    <tr>
                      <th>A</th>
                      <td>(3,3)</td>
                      <td>(0,4)</td>
                    </tr>
                    <tr>
                      <th>B</th>
                      <td>(4,0)</td>
                      <td>(1,1)</td>
                    </tr>
                  </table>
              
              ","1","","","","","","","experiment","15","false","B","B","1","1","","3"
"feedback","41","144361","0.0-41.0","no_com_bot","
                  <table class=""payoff-matrix"">
                    <tr>
                      <th rowspan=""2"">Your Choice</th>
                      <th colspan=""2"">Partner's Choice</th>
                    </tr>
                    <tr>
                      <th>A</th>
                      <th>B</th>
                    </tr>
                    <tr>
                      <th>A</th>
                      <td>(4,4)</td>
                      <td>(0,5)</td>
                    </tr>
                    <tr>
                      <th>B</th>
                      <td>(5,0)</td>
                      <td>(1,1)</td>
                    </tr>
                  </table>
              ","1202","
                <p>Results of Round 15:</p>
                <p>You chose: B</p>
                <p>Your partner chose: B</p>
                
      
      <table class=""payoff-matrix"">
        <tr>
          <th rowspan=""2"">Your Choice</th>
          <th colspan=""2"">Partner's Choice</th>
        </tr>
        <tr>
          <th>A</th>
          <th>B</th>
        </tr>
        <tr>
          <th>A</th>
          <td id=""cell-AA"">(3,3)</td>
          <td id=""cell-AB"">(0,4)</td>
        </tr>
        <tr>
          <th>B</th>
          <td id=""cell-BA"">(4,0)</td>
          <td id=""cell-BB"">(1,1)</td>
        </tr>
      </table>
      <style>
        #cell-BB {
          background-color: yellow;
        }
      </style>
  
  
                <p>Your payoff this round: <strong>1</strong></p>
                <p>Your total payoff: 33</p>
            ","0","","","","","","","experiment","15","false","","","","","","3"
"decision","42","145428","0.0-42.0","no_com_bot","
                  <table class=""payoff-matrix"">
                    <tr>
                      <th rowspan=""2"">Your Choice</th>
                      <th colspan=""2"">Partner's Choice</th>
                    </tr>
                    <tr>
                      <th>A</th>
                      <th>B</th>
                    </tr>
                    <tr>
                      <th>A</th>
                      <td>(4,4)</td>
                      <td>(0,5)</td>
                    </tr>
                    <tr>
                      <th>B</th>
                      <td>(5,0)</td>
                      <td>(1,1)</td>
                    </tr>
                  </table>
              ","1058","
                  <p>Round 16: Decision Phase</p>
                  <p>You have <span id=""decision-countdown"">30</span> seconds to make your choice.</p>
                  <p>Choose your action:</p>
                  
                  <table class=""payoff-matrix"">
                    <tr>
                      <th rowspan=""2"">Your Choice</th>
                      <th colspan=""2"">Partner's Choice</th>
                    </tr>
                    <tr>
                      <th>A</th>
                      <th>B</th>
                    </tr>
                    <tr>
                      <th>A</th>
                      <td>(4,4)</td>
                      <td>(0,5)</td>
                    </tr>
                    <tr>
                      <th>B</th>
                      <td>(5,0)</td>
                      <td>(1,1)</td>
                    </tr>
                  </table>
              
              ","1","","","","","","","experiment","16","false","B","B","1","1","","2"
"feedback","43","146644","0.0-43.0","no_com_bot","
                  <table class=""payoff-matrix"">
                    <tr>
                      <th rowspan=""2"">Your Choice</th>
                      <th colspan=""2"">Partner's Choice</th>
                    </tr>
                    <tr>
                      <th>A</th>
                      <th>B</th>
                    </tr>
                    <tr>
                      <th>A</th>
                      <td>(4,4)</td>
                      <td>(0,5)</td>
                    </tr>
                    <tr>
                      <th>B</th>
                      <td>(5,0)</td>
                      <td>(1,1)</td>
                    </tr>
                  </table>
              ","1212","
                <p>Results of Round 16:</p>
                <p>You chose: B</p>
                <p>Your partner chose: B</p>
                
      
      <table class=""payoff-matrix"">
        <tr>
          <th rowspan=""2"">Your Choice</th>
          <th colspan=""2"">Partner's Choice</th>
        </tr>
        <tr>
          <th>A</th>
          <th>B</th>
        </tr>
        <tr>
          <th>A</th>
          <td id=""cell-AA"">(4,4)</td>
          <td id=""cell-AB"">(0,5)</td>
        </tr>
        <tr>
          <th>B</th>
          <td id=""cell-BA"">(5,0)</td>
          <td id=""cell-BB"">(1,1)</td>
        </tr>
      </table>
      <style>
        #cell-BB {
          background-color: yellow;
        }
      </style>
  
  
                <p>Your payoff this round: <strong>1</strong></p>
                <p>Your total payoff: 34</p>
            ","0","","","","","","","experiment","16","false","","","","","","2"
"decision","44","147628","0.0-44.0","no_com_bot","
                  <table class=""payoff-matrix"">
                    <tr>
                      <th rowspan=""2"">Your Choice</th>
                      <th colspan=""2"">Partner's Choice</th>
                    </tr>
                    <tr>
                      <th>A</th>
                      <th>B</th>
                    </tr>
                    <tr>
                      <th>A</th>
                      <td>(4,4)</td>
                      <td>(0,5)</td>
                    </tr>
                    <tr>
                      <th>B</th>
                      <td>(5,0)</td>
                      <td>(1,1)</td>
                    </tr>
                  </table>
              ","978","
                  <p>Round 17: Decision Phase</p>
                  <p>You have <span id=""decision-countdown"">30</span> seconds to make your choice.</p>
                  <p>Choose your action:</p>
                  
                  <table class=""payoff-matrix"">
                    <tr>
                      <th rowspan=""2"">Your Choice</th>
                      <th colspan=""2"">Partner's Choice</th>
                    </tr>
                    <tr>
                      <th>A</th>
                      <th>B</th>
                    </tr>
                    <tr>
                      <th>A</th>
                      <td>(4,4)</td>
                      <td>(0,5)</td>
                    </tr>
                    <tr>
                      <th>B</th>
                      <td>(5,0)</td>
                      <td>(1,1)</td>
                    </tr>
                  </table>
              
              ","1","","","","","","","experiment","17","false","B","B","1","1","","2"
"feedback","45","148578","0.0-45.0","no_com_bot","
                  <table class=""payoff-matrix"">
                    <tr>
                      <th rowspan=""2"">Your Choice</th>
                      <th colspan=""2"">Partner's Choice</th>
                    </tr>
                    <tr>
                      <th>A</th>
                      <th>B</th>
                    </tr>
                    <tr>
                      <th>A</th>
                      <td>(4,4)</td>
                      <td>(0,5)</td>
                    </tr>
                    <tr>
                      <th>B</th>
                      <td>(5,0)</td>
                      <td>(1,1)</td>
                    </tr>
                  </table>
              ","947","
                <p>Results of Round 17:</p>
                <p>You chose: B</p>
                <p>Your partner chose: B</p>
                
      
      <table class=""payoff-matrix"">
        <tr>
          <th rowspan=""2"">Your Choice</th>
          <th colspan=""2"">Partner's Choice</th>
        </tr>
        <tr>
          <th>A</th>
          <th>B</th>
        </tr>
        <tr>
          <th>A</th>
          <td id=""cell-AA"">(4,4)</td>
          <td id=""cell-AB"">(0,5)</td>
        </tr>
        <tr>
          <th>B</th>
          <td id=""cell-BA"">(5,0)</td>
          <td id=""cell-BB"">(1,1)</td>
        </tr>
      </table>
      <style>
        #cell-BB {
          background-color: yellow;
        }
      </style>
  
  
                <p>Your payoff this round: <strong>1</strong></p>
                <p>Your total payoff: 35</p>
            ","0","","","","","","","experiment","17","false","","","","","","2"
"decision","46","149611","0.0-46.0","no_com_bot","
                  <table class=""payoff-matrix"">
                    <tr>
                      <th rowspan=""2"">Your Choice</th>
                      <th colspan=""2"">Partner's Choice</th>
                    </tr>
                    <tr>
                      <th>A</th>
                      <th>B</th>
                    </tr>
                    <tr>
                      <th>A</th>
                      <td>(4,4)</td>
                      <td>(0,5)</td>
                    </tr>
                    <tr>
                      <th>B</th>
                      <td>(5,0)</td>
                      <td>(1,1)</td>
                    </tr>
                  </table>
              ","1028","
                  <p>Round 18: Decision Phase</p>
                  <p>You have <span id=""decision-countdown"">30</span> seconds to make your choice.</p>
                  <p>Choose your action:</p>
                  
                  <table class=""payoff-matrix"">
                    <tr>
                      <th rowspan=""2"">Your Choice</th>
                      <th colspan=""2"">Partner's Choice</th>
                    </tr>
                    <tr>
                      <th>A</th>
                      <th>B</th>
                    </tr>
                    <tr>
                      <th>A</th>
                      <td>(3,3)</td>
                      <td>(0,4)</td>
                    </tr>
                    <tr>
                      <th>B</th>
                      <td>(4,0)</td>
                      <td>(1,1)</td>
                    </tr>
                  </table>
              
              ","0","","","","","","","experiment","18","false","A","B","0","4","","3"
"feedback","47","150944","0.0-47.0","no_com_bot","
                  <table class=""payoff-matrix"">
                    <tr>
                      <th rowspan=""2"">Your Choice</th>
                      <th colspan=""2"">Partner's Choice</th>
                    </tr>
                    <tr>
                      <th>A</th>
                      <th>B</th>
                    </tr>
                    <tr>
                      <th>A</th>
                      <td>(4,4)</td>
                      <td>(0,5)</td>
                    </tr>
                    <tr>
                      <th>B</th>
                      <td>(5,0)</td>
                      <td>(1,1)</td>
                    </tr>
                  </table>
              ","1329","
                <p>Results of Round 18:</p>
                <p>You chose: A</p>
                <p>Your partner chose: B</p>
                
      
      <table class=""payoff-matrix"">
        <tr>
          <th rowspan=""2"">Your Choice</th>
          <th colspan=""2"">Partner's Choice</th>
        </tr>
        <tr>
          <th>A</th>
          <th>B</th>
        </tr>
        <tr>
          <th>A</th>
          <td id=""cell-AA"">(3,3)</td>
          <td id=""cell-AB"">(0,4)</td>
        </tr>
        <tr>
          <th>B</th>
          <td id=""cell-BA"">(4,0)</td>
          <td id=""cell-BB"">(1,1)</td>
        </tr>
      </table>
      <style>
        #cell-AB {
          background-color: yellow;
        }
      </style>
  
  
                <p>Your payoff this round: <strong>0</strong></p>
                <p>Your total payoff: 35</p>
            ","0","","","","","","","experiment","18","false","","","","","","3"
"decision","48","151944","0.0-48.0","no_com_bot","
                  <table class=""payoff-matrix"">
                    <tr>
                      <th rowspan=""2"">Your Choice</th>
                      <th colspan=""2"">Partner's Choice</th>
                    </tr>
                    <tr>
                      <th>A</th>
                      <th>B</th>
                    </tr>
                    <tr>
                      <th>A</th>
                      <td>(4,4)</td>
                      <td>(0,5)</td>
                    </tr>
                    <tr>
                      <th>B</th>
                      <td>(5,0)</td>
                      <td>(1,1)</td>
                    </tr>
                  </table>
              ","994","
                  <p>Round 19: Decision Phase</p>
                  <p>You have <span id=""decision-countdown"">30</span> seconds to make your choice.</p>
                  <p>Choose your action:</p>
                  
                  <table class=""payoff-matrix"">
                    <tr>
                      <th rowspan=""2"">Your Choice</th>
                      <th colspan=""2"">Partner's Choice</th>
                    </tr>
                    <tr>
                      <th>A</th>
                      <th>B</th>
                    </tr>
                    <tr>
                      <th>A</th>
                      <td>(3,3)</td>
                      <td>(0,4)</td>
                    </tr>
                    <tr>
                      <th>B</th>
                      <td>(4,0)</td>
                      <td>(1,1)</td>
                    </tr>
                  </table>
              
              ","1","","","","","","","experiment","19","false","B","A","4","0","","3"
"feedback","49","153277","0.0-49.0","no_com_bot","
                  <table class=""payoff-matrix"">
                    <tr>
                      <th rowspan=""2"">Your Choice</th>
                      <th colspan=""2"">Partner's Choice</th>
                    </tr>
                    <tr>
                      <th>A</th>
                      <th>B</th>
                    </tr>
                    <tr>
                      <th>A</th>
                      <td>(4,4)</td>
                      <td>(0,5)</td>
                    </tr>
                    <tr>
                      <th>B</th>
                      <td>(5,0)</td>
                      <td>(1,1)</td>
                    </tr>
                  </table>
              ","1329","
                <p>Results of Round 19:</p>
                <p>You chose: B</p>
                <p>Your partner chose: A</p>
                
      
      <table class=""payoff-matrix"">
        <tr>
          <th rowspan=""2"">Your Choice</th>
          <th colspan=""2"">Partner's Choice</th>
        </tr>
        <tr>
          <th>A</th>
          <th>B</th>
        </tr>
        <tr>
          <th>A</th>
          <td id=""cell-AA"">(3,3)</td>
          <td id=""cell-AB"">(0,4)</td>
        </tr>
        <tr>
          <th>B</th>
          <td id=""cell-BA"">(4,0)</td>
          <td id=""cell-BB"">(1,1)</td>
        </tr>
      </table>
      <style>
        #cell-BA {
          background-color: yellow;
        }
      </style>
  
  
                <p>Your payoff this round: <strong>4</strong></p>
                <p>Your total payoff: 39</p>
            ","0","","","","","","","experiment","19","false","","","","","","3"
"decision","50","154144","0.0-50.0","no_com_bot","
                  <table class=""payoff-matrix"">
                    <tr>
                      <th rowspan=""2"">Your Choice</th>
                      <th colspan=""2"">Partner's Choice</th>
                    </tr>
                    <tr>
                      <th>A</th>
                      <th>B</th>
                    </tr>
                    <tr>
                      <th>A</th>
                      <td>(4,4)</td>
                      <td>(0,5)</td>
                    </tr>
                    <tr>
                      <th>B</th>
                      <td>(5,0)</td>
                      <td>(1,1)</td>
                    </tr>
                  </table>
              ","861","
                  <p>Round 20: Decision Phase</p>
                  <p>You have <span id=""decision-countdown"">30</span> seconds to make your choice.</p>
                  <p>Choose your action:</p>
                  
                  <table class=""payoff-matrix"">
                    <tr>
                      <th rowspan=""2"">Your Choice</th>
                      <th colspan=""2"">Partner's Choice</th>
                    </tr>
                    <tr>
                      <th>A</th>
                      <th>B</th>
                    </tr>
                    <tr>
                      <th>A</th>
                      <td>(3,3)</td>
                      <td>(0,5)</td>
                    </tr>
                    <tr>
                      <th>B</th>
                      <td>(5,0)</td>
                      <td>(1,1)</td>
                    </tr>
                  </table>
              
              ","1","","","","","","","experiment","20","false","B","B","1","1","","1"
"feedback","51","155310","0.0-51.0","no_com_bot","
                  <table class=""payoff-matrix"">
                    <tr>
                      <th rowspan=""2"">Your Choice</th>
                      <th colspan=""2"">Partner's Choice</th>
                    </tr>
                    <tr>
                      <th>A</th>
                      <th>B</th>
                    </tr>
                    <tr>
                      <th>A</th>
                      <td>(4,4)</td>
                      <td>(0,5)</td>
                    </tr>
                    <tr>
                      <th>B</th>
                      <td>(5,0)</td>
                      <td>(1,1)</td>
                    </tr>
                  </table>
              ","1162","
                <p>Results of Round 20:</p>
                <p>You chose: B</p>
                <p>Your partner chose: B</p>
                
      
      <table class=""payoff-matrix"">
        <tr>
          <th rowspan=""2"">Your Choice</th>
          <th colspan=""2"">Partner's Choice</th>
        </tr>
        <tr>
          <th>A</th>
          <th>B</th>
        </tr>
        <tr>
          <th>A</th>
          <td id=""cell-AA"">(3,3)</td>
          <td id=""cell-AB"">(0,5)</td>
        </tr>
        <tr>
          <th>B</th>
          <td id=""cell-BA"">(5,0)</td>
          <td id=""cell-BB"">(1,1)</td>
        </tr>
      </table>
      <style>
        #cell-BB {
          background-color: yellow;
        }
      </style>
  
  
                <p>Your payoff this round: <strong>1</strong></p>
                <p>Your total payoff: 40</p>
            ","0","","","","","","","experiment","20","false","","","","","","1"
"decision","52","156278","0.0-52.0","no_com_bot","
                  <table class=""payoff-matrix"">
                    <tr>
                      <th rowspan=""2"">Your Choice</th>
                      <th colspan=""2"">Partner's Choice</th>
                    </tr>
                    <tr>
                      <th>A</th>
                      <th>B</th>
                    </tr>
                    <tr>
                      <th>A</th>
                      <td>(4,4)</td>
                      <td>(0,5)</td>
                    </tr>
                    <tr>
                      <th>B</th>
                      <td>(5,0)</td>
                      <td>(1,1)</td>
                    </tr>
                  </table>
              ","962","
                  <p>Round 21: Decision Phase</p>
                  <p>You have <span id=""decision-countdown"">30</span> seconds to make your choice.</p>
                  <p>Choose your action:</p>
                  
                  <table class=""payoff-matrix"">
                    <tr>
                      <th rowspan=""2"">Your Choice</th>
                      <th colspan=""2"">Partner's Choice</th>
                    </tr>
                    <tr>
                      <th>A</th>
                      <th>B</th>
                    </tr>
                    <tr>
                      <th>A</th>
                      <td>(4,4)</td>
                      <td>(0,5)</td>
                    </tr>
                    <tr>
                      <th>B</th>
                      <td>(5,0)</td>
                      <td>(1,1)</td>
                    </tr>
                  </table>
              
              ","0","","","","","","","experiment","21","false","A","B","0","5","","2"
"feedback","53","157577","0.0-53.0","no_com_bot","
                  <table class=""payoff-matrix"">
                    <tr>
                      <th rowspan=""2"">Your Choice</th>
                      <th colspan=""2"">Partner's Choice</th>
                    </tr>
                    <tr>
                      <th>A</th>
                      <th>B</th>
                    </tr>
                    <tr>
                      <th>A</th>
                      <td>(4,4)</td>
                      <td>(0,5)</td>
                    </tr>
                    <tr>
                      <th>B</th>
                      <td>(5,0)</td>
                      <td>(1,1)</td>
                    </tr>
                  </table>
              ","1296","
                <p>Results of Round 21:</p>
                <p>You chose: A</p>
                <p>Your partner chose: B</p>
                
      
      <table class=""payoff-matrix"">
        <tr>
          <th rowspan=""2"">Your Choice</th>
          <th colspan=""2"">Partner's Choice</th>
        </tr>
        <tr>
          <th>A</th>
          <th>B</th>
        </tr>
        <tr>
          <th>A</th>
          <td id=""cell-AA"">(4,4)</td>
          <td id=""cell-AB"">(0,5)</td>
        </tr>
        <tr>
          <th>B</th>
          <td id=""cell-BA"">(5,0)</td>
          <td id=""cell-BB"">(1,1)</td>
        </tr>
      </table>
      <style>
        #cell-AB {
          background-color: yellow;
        }
      </style>
  
  
                <p>Your payoff this round: <strong>0</strong></p>
                <p>Your total payoff: 40</p>
            ","0","","","","","","","experiment","21","false","","","","","","2"
"decision","54","158710","0.0-54.0","no_com_bot","
                  <table class=""payoff-matrix"">
                    <tr>
                      <th rowspan=""2"">Your Choice</th>
                      <th colspan=""2"">Partner's Choice</th>
                    </tr>
                    <tr>
                      <th>A</th>
                      <th>B</th>
                    </tr>
                    <tr>
                      <th>A</th>
                      <td>(4,4)</td>
                      <td>(0,5)</td>
                    </tr>
                    <tr>
                      <th>B</th>
                      <td>(5,0)</td>
                      <td>(1,1)</td>
                    </tr>
                  </table>
              ","1129","
                  <p>Round 22: Decision Phase</p>
                  <p>You have <span id=""decision-countdown"">30</span> seconds to make your choice.</p>
                  <p>Choose your action:</p>
                  
                  <table class=""payoff-matrix"">
                    <tr>
                      <th rowspan=""2"">Your Choice</th>
                      <th colspan=""2"">Partner's Choice</th>
                    </tr>
                    <tr>
                      <th>A</th>
                      <th>B</th>
                    </tr>
                    <tr>
                      <th>A</th>
                      <td>(4,4)</td>
                      <td>(0,5)</td>
                    </tr>
                    <tr>
                      <th>B</th>
                      <td>(5,0)</td>
                      <td>(1,1)</td>
                    </tr>
                  </table>
              
              ","1","","","","","","","experiment","22","false","B","A","5","0","","2"
"feedback","55","160076","0.0-55.0","no_com_bot","
                  <table class=""payoff-matrix"">
                    <tr>
                      <th rowspan=""2"">Your Choice</th>
                      <th colspan=""2"">Partner's Choice</th>
                    </tr>
                    <tr>
                      <th>A</th>
                      <th>B</th>
                    </tr>
                    <tr>
                      <th>A</th>
                      <td>(4,4)</td>
                      <td>(0,5)</td>
                    </tr>
                    <tr>
                      <th>B</th>
                      <td>(5,0)</td>
                      <td>(1,1)</td>
                    </tr>
                  </table>
              ","1363","
                <p>Results of Round 22:</p>
                <p>You chose: B</p>
                <p>Your partner chose: A</p>
                
      
      <table class=""payoff-matrix"">
        <tr>
          <th rowspan=""2"">Your Choice</th>
          <th colspan=""2"">Partner's Choice</th>
        </tr>
        <tr>
          <th>A</th>
          <th>B</th>
        </tr>
        <tr>
          <th>A</th>
          <td id=""cell-AA"">(4,4)</td>
          <td id=""cell-AB"">(0,5)</td>
        </tr>
        <tr>
          <th>B</th>
          <td id=""cell-BA"">(5,0)</td>
          <td id=""cell-BB"">(1,1)</td>
        </tr>
      </table>
      <style>
        #cell-BA {
          background-color: yellow;
        }
      </style>
  
  
                <p>Your payoff this round: <strong>5</strong></p>
                <p>Your total payoff: 45</p>
            ","0","","","","","","","experiment","22","false","","","","","","2"
"decision","56","160977","0.0-56.0","no_com_bot","
                  <table class=""payoff-matrix"">
                    <tr>
                      <th rowspan=""2"">Your Choice</th>
                      <th colspan=""2"">Partner's Choice</th>
                    </tr>
                    <tr>
                      <th>A</th>
                      <th>B</th>
                    </tr>
                    <tr>
                      <th>A</th>
                      <td>(4,4)</td>
                      <td>(0,5)</td>
                    </tr>
                    <tr>
                      <th>B</th>
                      <td>(5,0)</td>
                      <td>(1,1)</td>
                    </tr>
                  </table>
              ","894","
                  <p>Round 23: Decision Phase</p>
                  <p>You have <span id=""decision-countdown"">30</span> seconds to make your choice.</p>
                  <p>Choose your action:</p>
                  
                  <table class=""payoff-matrix"">
                    <tr>
                      <th rowspan=""2"">Your Choice</th>
                      <th colspan=""2"">Partner's Choice</th>
                    </tr>
                    <tr>
                      <th>A</th>
                      <th>B</th>
                    </tr>
                    <tr>
                      <th>A</th>
                      <td>(3,3)</td>
                      <td>(0,5)</td>
                    </tr>
                    <tr>
                      <th>B</th>
                      <td>(5,0)</td>
                      <td>(2,2)</td>
                    </tr>
                  </table>
              
              ","1","","","","","","","experiment","23","false","B","B","2","2","","4"
"feedback","57","162243","0.0-57.0","no_com_bot","
                  <table class=""payoff-matrix"">
                    <tr>
                      <th rowspan=""2"">Your Choice</th>
                      <th colspan=""2"">Partner's Choice</th>
                    </tr>
                    <tr>
                      <th>A</th>
                      <th>B</th>
                    </tr>
                    <tr>
                      <th>A</th>
                      <td>(4,4)</td>
                      <td>(0,5)</td>
                    </tr>
                    <tr>
                      <th>B</th>
                      <td>(5,0)</td>
                      <td>(1,1)</td>
                    </tr>
                  </table>
              ","1263","
                <p>Results of Round 23:</p>
                <p>You chose: B</p>
                <p>Your partner chose: B</p>
                
      
      <table class=""payoff-matrix"">
        <tr>
          <th rowspan=""2"">Your Choice</th>
          <th colspan=""2"">Partner's Choice</th>
        </tr>
        <tr>
          <th>A</th>
          <th>B</th>
        </tr>
        <tr>
          <th>A</th>
          <td id=""cell-AA"">(3,3)</td>
          <td id=""cell-AB"">(0,5)</td>
        </tr>
        <tr>
          <th>B</th>
          <td id=""cell-BA"">(5,0)</td>
          <td id=""cell-BB"">(2,2)</td>
        </tr>
      </table>
      <style>
        #cell-BB {
          background-color: yellow;
        }
      </style>
  
  
                <p>Your payoff this round: <strong>2</strong></p>
                <p>Your total payoff: 47</p>
            ","0","","","","","","","experiment","23","false","","","","","","4"
"decision","58","164760","0.0-58.0","no_com_bot","
                  <table class=""payoff-matrix"">
                    <tr>
                      <th rowspan=""2"">Your Choice</th>
                      <th colspan=""2"">Partner's Choice</th>
                    </tr>
                    <tr>
                      <th>A</th>
                      <th>B</th>
                    </tr>
                    <tr>
                      <th>A</th>
                      <td>(4,4)</td>
                      <td>(0,5)</td>
                    </tr>
                    <tr>
                      <th>B</th>
                      <td>(5,0)</td>
                      <td>(1,1)</td>
                    </tr>
                  </table>
              ","2511","
                  <p>Round 24: Decision Phase</p>
                  <p>You have <span id=""decision-countdown"">30</span> seconds to make your choice.</p>
                  <p>Choose your action:</p>
